File: exemplary_data/XRD/sample2.xy
'Id: "" Comment: "Integrate frame 4_CTAB_001.gfrmwith cursor Full Frame Cursor #20" Operator: "MAF user" Anode: "Cu" Scantype: "TwoTheta" TimePerStep: "60"
4.64 -0.11853
4.7 0.253127
4.76 0.269793
4.82 -0.0510039
4.88 0.110446
4.94 0.416309
5 -0.045253
5.06 0.251241
5.12 0.13893
5.18 0.224202
5.24 0.164261
5.3 0.0676055
5.36 0.213857
5.42 0.491068
5.48 0.122032
5.54 0.121071
5.6 0.355045
5.66 0.0935345
5.72 0.226125
5.78 0.175712
5.84 0.0745988
5.9 0.405343
5.96 0.115891
6.02 0.288144
6.08 0.158934
6.14 0.258053
6.2 0.0937019
6.26 0.0668374
6.32 0.170081
6.38 0.170603
6.44 0.410198
6.5 0.168616
6.56 0.0745525
6.62 0.212703
6.68 0.264482
6.74 0.41288
6.8 0.462477
6.86 0.418071
6.92 0.139359
6.98 0.068221
7.04 0.13389
7.1 0.0626943
7.16 0.241648
7.22 0.0834594
7.28 0.0327302
7.34 -0.100641
7.4 0.126535
7.46 0.144585
7.52 0.194759
7.58 -0.0116999
7.64 0.121679
7.7 -0.0116833
7.76 0.184813
7.82 0.198595
7.88 0.0242787
7.94 0.111216
8 0.112215
8.06 0.0972826
8.12 -0.0476284
8.18 0.0366711
8.24 0.118807
8.3 0.139027
8.36 -0.0171206
8.42 0.0787066
8.48 -0.0442588
8.54 0.0699004
8.6 0.0486032
8.66 -0.0071258
8.72 -0.00318541
8.78 0.0699559
8.84 0.0597309
8.9 0.200174
8.96 0.0603662
9.02 0.183493
9.08 0.0729889
9.14 -0.0418002
9.2 -0.0138155
9.26 0.0671879
9.32 0.171958
9.38 0.350295
9.44 0.225985
9.5 -0.00382294
9.56 -0.0665498
9.62 -0.0198258
9.68 -0.0273956
9.74 0.00460565
9.8 0.0687451
9.86 0.0511892
9.92 -0.0242412
9.98 0.0149588
10.04 0.0228802
10.1 -0.04854
10.16 0.170305
10.22 -0.0229339
10.28 0.175781
10.34 -0.0119656
10.4 -0.0865609
10.46 0.0613354
10.52 0.0669633
10.58 -0.100343
10.64 -0.0305123
10.7 -0.0249327
10.76 -0.0320787
10.82 0.125628
10.88 0.169026
10.94 -0.10058
11 -0.0178029
11.06 -0.0607862
11.12 0.00656215
11.18 -0.0516109
11.24 -0.0164001
11.3 -0.00061166
11.36 -0.00715709
11.42 0.00360117
11.48 -0.0994922
11.54 -0.0303233
11.6 0.256279
11.66 0.0561612
11.72 0.024914
11.78 0.148081
11.84 0.0836652
11.9 0.012295
11.96 0.0577314
12.02 -0.0785268
12.08 0.0972847
12.14 -0.0516357
12.2 -0.0486704
12.26 0.0528086
12.32 -0.0678762
12.38 -0.0469215
12.44 -0.0493797
12.5 0.138773
12.56 0.306534
12.62 0.435684
12.68 0.535839
12.74 0.34191
12.8 0.256286
12.86 -0.0762321
12.92 0.057991
12.98 0.0558702
13.04 0.0339146
13.1 0.0548802
13.16 -0.100141
13.22 0.0162543
13.28 0.00280476
13.34 0.0796439
13.4 0.0417505
13.46 0.0339938
13.52 0.126001
13.58 0.114751
13.64 0.142816
13.7 0.387822
13.76 0.26526
13.82 0.62867
13.88 1.7238
13.94 7.22974
14 16.8806
14.06 25.5665
14.12 27.9826
14.18 24.8522
14.24 18.696
14.3 11.3031
14.36 4.53475
14.42 1.75782
14.48 0.837175
14.54 0.47839
14.6 0.25342
14.66 0.270254
14.72 0.0373159
14.78 0.00990842
14.84 0.0548162
14.9 0.0181913
14.96 0.0550174
15.02 -0.0996996
15.08 0.0858863
15.14 0.137996
15.2 0.0704985
15.26 0.111796
15.32 0.0744246
15.38 0.0917108
15.44 0.0366128
15.5 -0.0330317
15.56 0.0339693
15.62 -0.081468
15.68 0.0686138
15.74 0.00757948
15.8 0.0273417
15.86 0.0466117
15.92 -0.0163481
15.98 0.0454154
16.04 0.083299
16.1 0.0465286
16.16 -0.099726
16.22 0.122296
16.28 0.0432929
16.34 0.062987
16.4 0.141423
16.46 0.225843
16.52 0.165643
16.58 0.194171
16.64 -0.0645232
16.7 0.0518293
16.76 0.0796054
16.82 0.122201
16.88 0.0893611
16.94 -0.0146464
17 0.162828
17.06 0.0173649
17.12 0.0629712
17.18 -0.059447
17.24 0.104451
17.3 -0.00641057
17.36 0.0414091
17.42 0.0848033
17.48 0.0584191
17.54 -0.100002
17.6 -0.00402443
17.66 -0.0125077
17.72 0.00790349
17.78 -0.0213035
17.84 -0.0741318
17.9 0.0832543
17.96 -0.00947162
18.02 0.143741
18.08 -0.0619979
18.14 0.0387098
18.2 0.0162766
18.26 0.0441706
18.32 0.0343192
18.38 -0.0199304
18.44 -0.0534133
18.5 -0.033871
18.56 -0.0107782
18.62 -0.0551325
18.68 0.0373308
18.74 0.0261513
18.8 0.0919667
18.86 -5.30058e-05
18.92 0.0204598
18.98 -0.0388055
19.04 -0.0333157
19.1 0.089495
19.16 -0.0324577
19.22 0.0880747
19.28 0.028272
19.34 0.0807729
19.4 -0.0511217
19.46 -0.0581324
19.52 -0.0891759
19.58 0.0545755
19.64 0.0576892
19.7 0.105609
19.76 0.0193807
19.82 0.419538
19.88 0.561396
19.94 1.34523
20 4.3311
20.06 9.54848
20.12 11.8195
20.18 8.1805
20.24 3.26667
20.3 1.03141
20.36 0.519715
20.42 0.484393
20.48 0.272214
20.54 0.172367
20.6 0.173566
20.66 0.0127104
20.72 -0.0219623
20.78 0.0497082
20.84 -0.0308763
20.9 0.00464684
20.96 -0.0473877
21.02 0.0212628
21.08 0.0923107
21.14 0.0425032
21.2 0.148454
21.26 0.148546
21.32 0.0965793
21.38 -0.0230276
21.44 -0.101277
21.5 -0.0220795
21.56 0.049592
21.62 0.0271018
21.68 0.0687405
21.74 -0.0431549
21.8 -0.0927571
21.86 0.026747
21.92 0.0390925
21.98 -0.000818999
22.04 0.136205
22.1 0.0368332
22.16 -0.029768
22.22 0.156028
22.28 0.0324025
22.34 -0.0518588
22.4 0.0481157
22.46 -0.0182228
22.52 0.0277884
22.58 0.0970445
22.64 0.0506226
22.7 0.0985064
22.76 -0.0746159
22.82 -0.00293556
22.88 0.0760811
22.94 0.00326779
23 -0.0534089
23.06 -0.0197123
23.12 -0.0157242
23.18 -0.0204547
23.24 0.0357795
23.3 -0.0582487
23.36 0.0441034
23.42 -0.0301094
23.48 -0.0129405
23.54 0.109474
23.6 0.0251672
23.66 0.105531
23.72 0.118993
23.78 0.0222871
23.84 -0.0736546
23.9 0.25923
23.96 0.221722
24.02 0.0565748
24.08 -0.0152826
24.14 0.00594152
24.2 -0.00157726
24.26 0.103884
24.32 0.0509953
24.38 0.0964077
24.44 0.238107
24.5 0.98583
24.56 3.32056
24.62 5.14912
24.68 5.60411
24.74 4.24712
24.8 2.26191
24.86 0.917133
24.92 0.241344
24.98 0.260657
25.04 0.119566
25.1 0.0853928
25.16 0.122778
25.22 0.0042911
25.28 0.166994
25.34 -0.0824533
25.4 -0.0255359
25.46 -0.0219172
25.52 0.109597
25.58 0.0575517
25.64 0.0472341
25.7 0.108109
25.76 0.13919
25.82 0.0602526
25.88 0.113383
25.94 0.00511411
26 0.207019
26.06 0.0685453
26.12 0.0837069
26.18 0.00623057
26.24 -0.0675067
26.3 -0.0123437
26.36 0.0749029
26.42 0.0138015
26.48 0.0333042
26.54 0.00845348
26.6 0.0235515
26.66 0.141906
26.72 0.096301
26.78 0.164171
26.84 0.140683
26.9 0.149068
26.96 -0.0119198
27.02 0.0835254
27.08 0.148739
27.14 0.138627
27.2 0.0925487
27.26 0.19368
27.32 -0.00583175
27.38 0.0522857
27.44 0.302698
27.5 0.169794
27.56 0.129077
27.62 0.130028
27.68 0.104997
27.74 0.094565
27.8 0.188287
27.86 0.230453
27.92 0.173954
27.98 0.117559
28.04 0.104041
28.1 0.0191059
28.16 0.241896
28.22 0.154976
28.28 0.343467
28.34 1.36624
28.4 2.80246
28.46 6.14378
28.52 9.25472
28.58 10.8169
28.64 8.32148
28.7 3.82767
28.76 1.48968
28.82 0.634762
28.88 0.384547
28.94 0.257551
29 0.138498
29.06 0.0782882
29.12 -0.0246712
29.18 0.0529212
29.24 0.00556686
29.3 0.014186
29.36 -0.0983379
29.42 -0.0488285
29.48 -0.055029
29.54 0.0212241
29.6 0.105215
29.66 0.0281996
29.72 -0.0244118
29.78 -0.0209193
29.84 -0.0471549
29.9 -0.0585045
29.96 -0.0347267
30.02 0.0803608
30.08 -0.0141265
30.14 -0.0563799
30.2 -0.0658244
30.26 -0.000885947
30.32 0.0194373
30.38 0.0374252
30.44 -0.0386223
30.5 0.0560177
30.56 -0.0733367
30.62 0.107017
30.68 0.00863151
30.74 0.202336
30.8 0.0194065
30.86 0.0362116
30.92 0.0209148
30.98 0.051954
31.04 -0.0409953
31.1 0.0768368
31.16 0.0963656
31.22 -0.0433892
31.28 -0.0161385
31.34 0.0722571
31.4 0.0561703
31.46 0.034983
31.52 -0.0125856
31.58 0.0142668
31.64 0.0397917
31.7 0.236316
31.76 0.362715
31.82 0.781369
31.88 3.29081
31.94 10.0217
32 16.2152
32.06 16.7147
32.12 11.4861
32.18 5.44125
32.24 2.28015
32.3 0.912879
32.36 0.524884
32.42 0.374048
32.48 0.1761
32.54 0.220593
32.6 0.0477944
32.66 0.179829
32.72 -0.0153178
32.78 0.0340386
32.84 -0.0279135
32.9 -0.00738989
32.96 -0.0472394
33.02 0.0200809
33.08 0.0105595
33.14 0.0168885
33.2 -0.00964025
33.26 0.00645544
33.32 0.0966109
33.38 0.0973872
33.44 0.171121
33.5 0.0814114
33.56 -0.078235
33.62 -0.0306035
33.68 0.0425442
33.74 0.0863988
33.8 0.101668
33.86 -0.0332689
33.92 0.040678
33.98 -0.0743676
34.04 -0.00675545
34.1 -0.0498858
34.16 -0.0681183
34.22 0.0175169
34.28 0.109804
34.34 0.121445
34.4 0.0454027
34.46 0.00383156
34.52 -0.0678501
34.58 -0.0466075
34.64 0.00173164
34.7 -0.0477117
34.76 0.0201527
34.82 -0.0370968
34.88 0.0164365
34.94 -0.00453502
35 0.318106
35.06 1.55315
35.12 2.7788
35.18 3.24181
35.24 2.8217
35.3 1.87422
35.36 0.914392
35.42 0.287943
35.48 0.180497
35.54 0.105828
35.6 -0.029066
35.66 0.02503
35.72 0.0436883
35.78 -0.0564942
35.84 0.0319787
35.9 -0.0453568
35.96 0.022049
36.02 0.0447467
36.08 0.060959
36.14 -0.0322533
36.2 -0.0367506
36.26 0.00999803
36.32 -0.0141173
36.38 -0.0112546
36.44 -0.062767
36.5 0.00731616
36.56 0.0233103
36.62 0.115754
36.68 0.0881863
36.74 0.0345828
36.8 0.0247035
36.86 0.0718098
36.92 0.102898
36.98 0.0894181
37.04 -0.0540677
37.1 -0.00923549
37.16 0.0973351
37.22 -0.0401394
37.28 0.00709703
37.34 -0.0030168
37.4 0.0233514
37.46 -0.0132322
37.52 -0.0309873
37.58 -0.00210667
37.64 0.167091
37.7 0.0503461
37.76 -0.00965539
37.82 -0.080287
37.88 0.0457324
37.94 0.0871347
38 0.0143576
38.06 0.00828628
38.12 0.027334
38.18 0.0274502
38.24 -0.0703475
38.3 0.0571257
38.36 0.0484895
38.42 0.168372
38.48 0.107975
38.54 0.125179
38.6 0.0650874
38.66 0.0929335
38.72 0.125157
38.78 0.0955347
38.84 0.0652201
38.9 0.101679
38.96 0.059511
39.02 0.00287031
39.08 0.0467787
39.14 0.027046
39.2 -0.0750136
39.26 0.0796023
39.32 0.0674606
39.38 -0.0246947
39.44 0.00455296
39.5 0.015583
39.56 -0.00692301
39.62 0.0933585
39.68 0.0397542
39.74 0.0600608
39.8 -0.080488
39.86 -0.0563745
39.92 -0.0311892
39.98 -0.0493047
40.04 -0.08182
40.1 -0.00838176
40.16 -0.0239869
40.22 0.0611056
40.28 0.0980419
40.34 -0.0764964
40.4 -0.000823635
40.46 0.00875776
40.52 0.173723
40.58 0.336831
40.64 0.594152
40.7 2.37834
40.76 8.19443
40.82 13.7347
40.88 17.2771
40.94 15.3054
41 9.72308
41.06 4.99115
41.12 2.06917
41.18 0.770225
41.24 0.59144
41.3 0.281395
41.36 0.313871
41.42 0.237234
41.48 0.116439
41.54 -0.0677989
41.6 0.0773796
41.66 -0.0798387
41.72 -0.00324824
41.78 0.00911085
41.84 -0.00349127
41.9 -0.000962244
41.96 -0.0314889
42.02 -0.0271231
42.08 -0.0516765
42.14 -0.0717957
42.2 0.0453072
42.26 -0.00658199
42.32 0.0175184
42.38 0.0583073
42.44 0.0350239
42.5 -0.0415992
42.56 0.0367818
42.62 -0.0160834
42.68 0.00768511
42.74 -0.0307986
42.8 0.0159368
42.86 -0.0808799
42.92 0.0580288
42.98 -0.0499169
43.04 0.0960026
43.1 0.0285769
43.16 0.16082
43.22 0.218078
43.28 0.882984
43.34 3.39109
43.4 5.20265
43.46 6.05265
43.52 5.05568
43.58 3.36827
43.64 1.84172
43.7 0.831902
43.76 0.341533
43.82 0.200583
43.88 0.101216
43.94 0.142585
44 0.0617645
44.06 0.0176341
44.12 0.0590332
44.18 -0.0754941
44.24 0.0126911
44.3 0.0222541
44.36 0.0892205
44.42 0.0664057
44.48 0.00975166
44.54 0.0762268
44.6 -0.0393954
44.66 0.00684999
44.72 0.0836284
44.78 0.026274
44.84 0.0209807
44.9 -0.0086341
44.96 -0.0631333
45.02 -0.035427
45.08 0.0510768
45.14 0.0235374
45.2 0.00916032
45.26 -0.0253063
45.32 -0.0101041
45.38 0.040099
45.44 -0.0222174
45.5 -0.0104999
45.56 0.00476227
45.62 -0.0622116
45.68 -0.00981377
45.74 -0.0110504
45.8 0.0820798
45.86 0.118703
45.92 0.160375
45.98 0.113495
46.04 0.206059
46.1 0.075783
46.16 0.0656446
46.22 -0.00462242
46.28 -0.0355956
46.34 0.0334282
46.4 0.0626336
46.46 0.0477081
46.52 -0.0559009
46.58 0.0480202
46.64 0.0314467
46.7 -0.00495423
46.76 0.0572634
46.82 -0.00236983
46.88 -0.0385587
46.94 -0.00330096
47 0.143732
47.06 -0.0441084
47.12 -0.0321496
47.18 0.0957661
47.24 0.032806
47.3 0.0175929
47.36 0.0281946
47.42 0.0215857
47.48 0.0854565
47.54 0.092076
47.6 0.00216907
47.66 0.0182153
47.72 -0.029602
47.78 0.0246334
47.84 0.0160086
47.9 -0.0265632
47.96 -0.0121629
48.02 0.0157579
48.08 0.019746
48.14 -0.0281061
48.2 0.0540511
48.26 0.0961158
48.32 0.0824751
48.38 0.0408155
48.44 -0.0192921
48.5 0.0440922
48.56 -0.0261597
48.62 0.0546076
48.68 -0.016974
48.74 0.0793848
48.8 0.165817
48.86 0.00323808
48.92 -0.0733738
48.98 0.0752261
49.04 0.0516853
49.1 0.0521709
49.16 -0.016018
49.22 0.0174633
49.28 0.00404068
49.34 0.140605
49.4 0.173987
49.46 0.142538
49.52 0.123629
49.58 0.0436924
49.64 0.0387162
49.7 -0.0180368
49.76 -0.0495669
49.82 -0.0357917
49.88 -0.0013222
49.94 0.0198668
50 -0.0512708
50.06 0.00662599
50.12 -0.0488745
50.18 -0.0418045
50.24 -0.0484184
50.3 -0.0461061
50.36 0.0458662
50.42 0.203799
50.48 0.67681
50.54 0.978543
50.6 1.20366
50.66 1.10787
50.72 0.873937
50.78 0.473217
50.84 0.196993
50.9 0.0934687
50.96 0.00778341
51.02 0.0860242
51.08 -0.0624217
51.14 -0.0174958
51.2 -0.00759458
51.26 0.0580411
51.32 0.0837713
51.38 -0.0330422
51.44 -0.00894361
51.5 -0.00221358
51.56 -0.0456715
51.62 0.063188
51.68 0.0501004
51.74 -0.0277436
51.8 -0.019517
51.86 0.0179536
51.92 0.0875324
51.98 -0.0688458
52.04 0.0389703
52.1 0.00780024
52.16 -0.0413453
52.22 -0.0677019
52.28 0.0574764
52.34 -0.0083673
52.4 0.176611
52.46 0.138685
52.52 0.181853
52.58 0.153307
52.64 0.260291
52.7 0.579444
52.76 0.928861
52.82 1.18287
52.88 1.27321
52.94 1.19309
53 0.826702
53.06 0.48524
53.12 0.216914
53.18 0.0356441
53.24 0.030355
53.3 0.00471224
53.36 0.0109922
53.42 0.0124456
53.48 0.079092
53.54 -0.0116815
53.6 0.0449439
53.66 -0.0308033
53.72 -0.0198854
53.78 -0.00240796
53.84 -0.0504086
53.9 0.00791027
53.96 0.08854
54.02 -0.0629273
54.08 -0.00669538
54.14 -0.0130015
54.2 -0.0549259
54.26 0.016244
54.32 -0.0367051
54.38 -0.0242931
54.44 0.0228736
54.5 -0.0173178
54.56 -0.0682017
54.62 0.0434851
54.68 -0.00943086
54.74 0.0795343
54.8 0.156431
54.86 0.266814
54.92 0.422625
54.98 0.527443
55.04 0.459754
55.1 0.4771
55.16 0.352151
55.22 0.203928
55.28 0.0867472
55.34 0.142149
55.4 0.0956841
55.46 0.00501147
55.52 0.0703315
55.58 0.0652069
55.64 0.0608204
55.7 -0.0676014
55.76 0.00413363
55.82 0.0114609
55.88 -0.0430645
55.94 0.0282793
56 0.0876022
56.06 0.0268384
56.12 0.00436336
56.18 0.0806779
56.24 -0.0669104
56.3 0.0300789
56.36 -0.0232643
56.42 -0.0410503
56.48 -0.00547701
56.54 0.0210607
56.6 0.035562
56.66 -0.033431
56.72 -0.0229355
56.78 -0.0309101
56.84 0.0444682
56.9 -0.0079471
56.96 -0.0184809
57.02 0.0881856
57.08 -0.0545794
57.14 -0.0219798
57.2 0.036329
57.26 -0.012048
57.32 -0.0241576
57.38 -0.0140471
57.44 -0.0671525
57.5 -0.0547944
57.56 -0.0247947
57.62 -0.034154
57.68 -0.00442824
57.74 -0.0345617
57.8 0.0174811
57.86 0.0252791
57.92 -0.0194083
57.98 0.0140111
58.04 0.0169359
58.1 0.00600503
58.16 -0.023096
58.22 0.0600966
58.28 0.0271131
58.34 0.0640005
58.4 0.0393801
58.46 0.00649064
58.52 -0.0659693
58.58 -0.020159
58.64 0.0212135
58.7 0.0910995
58.76 0.0486763
58.82 0.00969161
58.88 -0.049578
58.94 0.0459531
59 0.0789132
59.06 0.112176
59.12 0.101356
59.18 -0.0615747
59.24 0.129053
59.3 -0.0487386
59.36 0.0391809
59.42 -0.0198156
59.48 -0.0402516
59.54 -0.0503632
59.6 -0.0244598
59.66 0.00114352
59.72 0.0578009
59.78 -0.0125993
59.84 -0.0279916
59.9 0.00982304
59.96 0.0431224
60.02 -0.0306435
60.08 -0.0330127
60.14 0.0162113
60.2 0.00921033
60.26 -0.049507
60.32 -0.0121839
60.38 0.0409167
60.44 0.148953
60.5 0.0557616
60.56 0.00467435
60.62 0.0151249
60.68 -0.00187419
60.74 -0.0124199
60.8 -0.00439666
60.86 -0.00666839
60.92 -0.0654245
60.98 0.179367
61.04 0.512244
61.1 0.583716
61.16 0.457626
61.22 0.446947
61.28 0.318556
61.34 0.154834
61.4 0.0786123
61.46 0.0232619
61.52 -0.0208903
61.58 -0.050435
61.64 0.00766441
61.7 -0.0436204
61.76 -0.00643294
61.82 -0.0137532
61.88 -0.0614238
61.94 -0.0203179
62 -0.035044
62.06 0.0234434
62.12 0.140136
62.18 0.0202232
62.24 0.0179435
62.3 -0.0242673
62.36 0.066033
62.42 -0.0183916
62.48 0.0908713
62.54 0.103325
62.6 -0.0522842
62.66 0.0140899
62.72 -0.0131102
62.78 0.066823
62.84 0.0339879
62.9 0.0602745
62.96 0.179928
63.02 0.278639
63.08 0.240984
63.14 0.19229
63.2 0.177739
63.26 0.154944
63.32 0.222187
63.38 0.0965075
63.44 0.0702322
63.5 0.0805507
63.56 -0.0274726
63.62 0.0137759
63.68 -0.027064
63.74 -0.00566511
63.8 -0.0355311
63.86 0.0959115
63.92 0.0379789
63.98 -0.0442284
64.04 -0.00148859
64.1 -0.0135845
64.16 0.00208719
64.22 -0.0400974
64.28 0.0447828
64.34 0.0260031
64.4 0.0960905
64.46 -0.0122024
64.52 -0.00951789
64.58 -0.0245289
64.64 -0.020195
64.7 0.0137842
64.76 0.0221438
64.82 0.0781925
64.88 -0.00921614
64.94 0.00244018
65 -0.044315
65.06 0.0377508
65.12 0.0043654
65.18 0.0096846
65.24 -0.0334705
65.3 0.0150832
65.36 -0.0245056
65.42 0.00183405
65.48 -0.00257159
65.54 0.085769
65.6 0.0480873
65.66 0.0202244
65.72 -0.041245
65.78 0.0150984
65.84 0.120412
65.9 0.0542862
65.96 0.0650868
66.02 -0.0174254
66.08 0.0744354
66.14 0.0763079
66.2 0.0569057
66.26 0.0338585
66.32 -0.0562877
66.38 0.0276218
66.44 0.0628264
66.5 0.0207736
66.56 -0.000849415
66.62 -0.028782
66.68 0.0187663
66.74 0.04477
66.8 0.269499
66.86 0.578272
66.92 0.677218
66.98 0.479984
67.04 0.636116
67.1 0.557792
67.16 0.415105
67.22 0.308087
67.28 0.19288
67.34 0.158228
67.4 0.0381084
67.46 -0.00830716
67.52 0.0171224
67.58 0.00881735
67.64 -0.0526406
67.7 -0.0239776
67.76 -0.0429883
67.82 -0.0390668
67.88 -0.0124165
67.94 -0.00115694
68 -0.0515758
68.06 0.00777742
68.12 -0.0618479
68.18 0.0405344
68.24 -0.0066677
68.3 0.0206187
68.36 -0.0132868
68.42 -0.0558685
68.48 -0.00146156
68.54 -0.0181171
68.6 -0.000168159
68.66 0.0860362
68.72 0.43926
68.78 0.621834
68.84 0.534709
68.9 0.456368
68.96 0.540613
69.02 0.490549
69.08 0.264197
69.14 0.120367
69.2 0.0674977
69.26 0.0727922
69.32 -0.0436868
69.38 -0.0264292
69.44 0.0312246
69.5 0.0336577
69.56 -0.0628096
69.62 0.00734511
69.68 0.0364841
69.74 -0.0198579
69.8 0.0827477
69.86 -0.0129992
69.92 0.00491713
69.98 -0.0130027
70.04 0.0097095
70.1 -0.0379355
70.16 0.0314358
70.22 -0.0157796
70.28 0.0297113
70.34 0.0108537
70.4 0.0273212
70.46 0.0275458
70.52 -0.0615897
70.58 0.120144
70.64 0.0856475
70.7 0.0805397
70.76 0.0999762
70.82 0.0620835
70.88 0.0756148
70.94 0.067321
71 -0.0200573
71.06 0.125668
71.12 0.0723306
71.18 0.0560561
71.24 0.0637072
71.3 0.024367
71.36 0.0689544
71.42 0.0583546
71.48 0.0741278
71.54 -0.000785996
71.6 0.0409441
71.66 0.0409622
71.72 0.00807129
71.78 -0.0275335
71.84 -0.0555605
71.9 -0.0234981
71.96 0.00902635
72.02 -0.0100346
72.08 -0.0166475
72.14 -0.00337055
72.2 0.0348578
72.26 0.0171943
72.32 -0.0286204
72.38 0.0358598
72.44 0.0743313
72.5 0.0324312
72.56 -0.05778
72.62 -0.039421
72.68 0.0239847
72.74 -0.0510699
72.8 -0.0181264
72.86 0.0766019
72.92 0.0785031
72.98 0.00499435
73.04 0.0504723
73.1 -0.027684
73.16 -0.0140085
73.22 -0.0568726
73.28 -0.0239618
73.34 -0.0207573
73.4 0.00643662
73.46 -0.0270864
73.52 -0.0142008
73.58 0.00026184
73.64 0.00259319
73.7 0.143738
73.76 0.0286478
73.82 0.0144439
73.88 -0.0276534
73.94 -0.0400877
74 0.00011231
74.06 -0.0285752
74.12 -0.000847319
74.18 0.101554
74.24 0.223323
74.3 0.205482
74.36 0.200094
74.42 0.0829316
74.48 0.179348
74.54 0.213538
74.6 0.0782576
74.66 0.0264754
74.72 0.0327401
74.78 0.0404871
74.84 -0.0497837
74.9 0.0241273
74.96 -0.00309323
75.02 0.0448726
75.08 -0.0577537
75.14 -0.0391262
75.2 -0.0154994
75.26 -0.0551709
75.32 0.0287032
75.38 -0.00740303
75.44 -0.0327876
75.5 -0.0410977
75.56 0.0141644
75.62 -0.0303033
75.68 0.0365682
75.74 0.0640823
75.8 0.0310074
75.86 0.0122261
75.92 0.0308934
75.98 0.124324
76.04 0.210474
76.1 0.197852
76.16 0.174061
76.22 0.305769
76.28 0.181515
76.34 0.222357
76.4 0.150806
76.46 0.117524
76.52 0.067184
76.58 0.112012
76.64 0.0562895
76.7 0.00173502
76.76 -0.0186183
76.82 -0.0105738
76.88 -0.00921866
76.94 -0.00151343
77 -0.0160702
77.06 -0.00215082
77.12 -0.0234222
77.18 -0.0250312
77.24 -0.0128552
77.3 0.00511018
77.36 -0.0107313
77.42 -0.0456988
77.48 -0.03914
77.54 -0.00691121
77.6 -0.0498692
77.66 0.00126396
77.72 0.027494
77.78 0.080768
77.84 0.0818111
77.9 0.2078
77.96 0.155325
78.02 0.125035
78.08 0.157505
78.14 0.202984
78.2 0.146687
78.26 0.0662597
78.32 0.000633847
78.38 0.114921
78.44 0.0609352
78.5 0.0935255
78.56 0.0209021
78.62 -0.0103173
78.68 -0.0333692
78.74 0.00337683
78.8 -0.00313769
78.86 -0.013244
78.92 -0.0560247
78.98 0.0442575
79.04 0.0428449
79.1 0.0333973
79.16 -0.00668448
79.22 -0.0112843
79.28 0.0113006
79.34 -0.001582
79.4 0.0246856
79.46 0.0255679
79.52 -0.0260096
79.58 -0.0178661
79.64 -0.0525241
79.7 -0.0441907
79.76 0.0563047
79.82 0.0139596
79.88 0.00879989
79.94 -0.0105264
80 -0.0162965
80.06 -0.0298666
80.12 0.0250079
80.18 0.0438745
80.24 -0.0351272
80.3 -0.0330584
80.36 0.0596754
80.42 -0.0463547
80.48 0.0221227
80.54 -0.0554078
80.6 0.0137386
80.66 -0.0146115
80.72 0.0124574
80.78 -0.037085
80.84 -0.0517897
80.9 0.0310172
80.96 0.00344924
81.02 0.011424
81.08 -0.00062806
81.14 -0.0142209
81.2 -0.0126721
81.26 0.0449464
81.32 -0.0067907
81.38 0.0090497
81.44 -0.0414993
81.5 -0.0552333
81.56 0.0564192
81.62 0.0044458
81.68 -0.0181526
81.74 0.0465037
81.8 0.0679813
81.86 0.0115433
81.92 0.0514148
81.98 0.000977971
82.04 -0.0434011
82.1 0.0259764
82.16 -0.0194335
82.22 -0.0170823
82.28 -0.0350301
82.34 -0.0255527
82.4 0.0406564
82.46 0.131854
82.52 0.014897
82.58 0.342792
82.64 0.230397
82.68 -0.063717