File: exemplary_data/XRD/sample1.xy
'Id: "" Comment: "Integrate frame 3_Br25_001.gfrmwith cursor Full Frame Cursor #19" Operator: "MAF user" Anode: "Cu" Scantype: "TwoTheta" TimePerStep: "60"
4.64 -0.114016
4.7 0.440464
4.76 0.253692
4.82 0.0410539
4.88 0.00109054
4.94 -0.0852639
5 0.000942714
5.06 0.0327828
5.12 0.0184718
5.18 0.144078
5.24 0.344881
5.3 0.111879
5.36 0.0209091
5.42 0.0562428
5.48 0.0372633
5.54 0.207105
5.6 0.400773
5.66 0.140318
5.72 0.0628553
5.78 0.136041
5.84 0.147619
5.9 0.0275551
5.96 0.151543
6.02 0.247518
6.08 0.318639
6.14 0.12133
6.2 0.0244211
6.26 0.0162098
6.32 -0.0316986
6.38 0.0821214
6.44 0.194844
6.5 -0.0659204
6.56 0.265474
6.62 0.0339735
6.68 -0.0932029
6.74 -0.0335384
6.8 0.248904
6.86 0.0251
6.92 0.102045
6.98 -0.0601587
7.04 0.102504
7.1 0.0163319
7.16 -0.0725763
7.22 0.23741
7.28 -0.0303431
7.34 0.190002
7.4 0.0929116
7.46 0.148114
7.52 0.0240765
7.58 0.175985
7.64 -0.0771925
7.7 0.097292
7.76 0.0370364
7.82 -0.0490262
7.88 0.139328
7.94 0.135025
8 0.125369
8.06 0.126591
8.12 0.158141
8.18 0.0510824
8.24 -0.0311523
8.3 0.0162392
8.36 -0.101261
8.42 -0.0991188
8.48 0.155112
8.54 0.122006
8.6 0.130479
8.66 -0.0112458
8.72 0.115986
8.78 0.0611634
8.84 0.0104832
8.9 0.00918218
8.96 0.105707
9.02 0.000713565
9.08 0.0840643
9.14 0.101126
9.2 0.0380815
9.26 0.0300615
9.32 0.133059
9.38 0.0936002
9.44 0.164306
9.5 -0.0142678
9.56 0.0344372
9.62 0.128386
9.68 -0.0996704
9.74 0.09086
9.8 0.0374639
9.86 0.129083
9.92 0.0950297
9.98 0.128937
10.04 0.0377943
10.1 0.0750603
10.16 0.044038
10.22 0.0945728
10.28 -0.0577763
10.34 0.00773247
10.4 0.158684
10.46 -0.0625466
10.52 0.216797
10.58 0.135536
10.64 0.0781034
10.7 0.131633
10.76 0.176879
10.82 -0.0240096
10.88 -0.0996605
10.94 0.0712972
11 0.230251
11.06 0.0117243
11.12 0.0887701
11.18 0.0241267
11.24 0.0516892
11.3 -0.000718575
11.36 -0.0417978
11.42 -0.0814171
11.48 0.00330016
11.54 -0.0343533
11.6 0.0364429
11.66 -0.0788055
11.72 0.0995387
11.78 0.100023
11.84 -0.0111546
11.9 -0.0434012
11.96 0.0711614
12.02 0.114645
12.08 0.154351
12.14 0.0901249
12.2 -0.0995917
12.26 0.0918729
12.32 -0.0894042
12.38 0.0122335
12.44 0.0786983
12.5 0.225311
12.56 0.381545
12.62 0.67451
12.68 0.607568
12.74 0.533341
12.8 0.284455
12.86 0.0936587
12.92 0.0215702
12.98 -0.0630273
13.04 -0.0174324
13.1 -0.100425
13.16 -0.000361571
13.22 -0.0853228
13.28 0.0397608
13.34 -0.00149268
13.4 0.109755
13.46 0.121985
13.52 0.0688561
13.58 0.00679151
13.64 0.138044
13.7 0.12251
13.76 0.334097
13.82 0.480007
13.88 1.49184
13.94 5.92138
14 17.6689
14.06 29.5475
14.12 31.9679
14.18 28.1651
14.24 20.1317
14.3 10.3326
14.36 3.80952
14.42 1.24266
14.48 0.499024
14.54 0.120738
14.6 0.00267448
14.66 0.121121
14.72 0.109283
14.78 -0.0132465
14.84 -0.0811667
14.9 0.0101021
14.96 -0.0229565
15.02 -0.040098
15.08 0.00357939
15.14 0.0218487
15.2 -0.0997028
15.26 0.0533952
15.32 -0.000492137
15.38 -0.03318
15.44 -0.0130947
15.5 -0.0427695
15.56 0.0558326
15.62 -0.0203195
15.68 0.0461334
15.74 -0.0240513
15.8 -0.0326432
15.86 -0.00406757
15.92 0.0234624
15.98 -0.0802863
16.04 0.0176797
16.1 -0.0695624
16.16 -0.0688094
16.22 0.19063
16.28 0.0999221
16.34 0.0400507
16.4 0.126251
16.46 0.0577399
16.52 0.0391139
16.58 0.0827513
16.64 -0.0285026
16.7 0.000504381
16.76 -0.0628814
16.82 -0.0198948
16.88 0.00237557
16.94 -0.040327
17 -0.0978246
17.06 -0.0267591
17.12 -0.0663122
17.18 -0.0255288
17.24 -0.0301819
17.3 0.148841
17.36 0.00419587
17.42 0.0606829
17.48 0.0144343
17.54 -0.0237129
17.6 0.0599579
17.66 0.0730115
17.72 -0.0748524
17.78 0.0590731
17.84 0.088265
17.9 0.0905795
17.96 -0.0597626
18.02 -0.028526
18.08 -0.075171
18.14 0.0183606
18.2 -0.0882383
18.26 -0.0167773
18.32 0.0660835
18.38 0.0053673
18.44 0.136698
18.5 -0.00684746
18.56 -0.0996469
18.62 -0.0608131
18.68 -0.049993
18.74 0.00273461
18.8 -0.0768034
18.86 -0.0648248
18.92 -0.0650293
18.98 -0.00957413
19.04 -0.0755726
19.1 -0.0659746
19.16 0.0235884
19.22 -0.0984857
19.28 -0.0355395
19.34 -0.0172955
19.4 -0.0217774
19.46 -0.027613
19.52 0.0697766
19.58 -0.0807702
19.64 0.016375
19.7 -0.0185158
19.76 0.212013
19.82 0.333294
19.88 0.546088
19.94 1.25886
20 3.86096
20.06 7.97695
20.12 10.0828
20.18 7.51507
20.24 3.60369
20.3 0.861927
20.36 0.142157
20.42 0.196678
20.48 0.0375748
20.54 0.0192224
20.6 -0.0254364
20.66 -0.0755523
20.72 0.042056
20.78 -0.0588136
20.84 -0.0566435
20.9 0.0157019
20.96 -0.0240098
21.02 -0.0461396
21.08 -0.053675
21.14 0.0221021
21.2 0.0132097
21.26 0.0157625
21.32 -0.0579957
21.38 -0.0586731
21.44 -0.0251636
21.5 0.016163
21.56 -0.0318569
21.62 -0.0370385
21.68 0.0383553
21.74 -0.0922837
21.8 -0.0307824
21.86 -0.0340483
21.92 0.147902
21.98 0.0450845
22.04 0.0750969
22.1 0.0242338
22.16 -0.0867557
22.22 0.0355546
22.28 -0.0109636
22.34 0.0954187
22.4 0.0459284
22.46 0.0308968
22.52 0.221559
22.58 0.0420915
22.64 0.0215802
22.7 0.224651
22.76 0.079008
22.82 0.147714
22.88 0.0562257
22.94 0.0103534
23 -0.0666888
23.06 -0.0966467
23.12 -0.0126397
23.18 -0.0504793
23.24 0.000207133
23.3 -0.103413
23.36 0.0242238
23.42 -0.00157245
23.48 -0.0193131
23.54 -0.104922
23.6 -0.0261519
23.66 -0.0853326
23.72 -0.090398
23.78 0.0587761
23.84 -0.0854463
23.9 0.00927952
23.96 -0.105367
24.02 -0.0284613
24.08 -0.0131099
24.14 -0.0102829
24.2 0.0571478
24.26 -0.00108083
24.32 0.116671
24.38 0.0954942
24.44 0.12684
24.5 0.622408
24.56 3.22548
24.62 5.40364
24.68 5.80383
24.74 4.84526
24.8 2.59912
24.86 1.03134
24.92 0.43534
24.98 0.140421
25.04 0.125724
25.1 0.199367
25.16 0.175531
25.22 -0.0507267
25.28 0.0658571
25.34 0.143685
25.4 0.140767
25.46 0.100424
25.52 0.157265
25.58 0.0895309
25.64 0.196927
25.7 0.273795
25.76 0.182553
25.82 0.281195
25.88 0.383511
25.94 0.305403
26 0.211982
26.06 0.22091
26.12 0.0533847
26.18 0.0651886
26.24 0.17423
26.3 0.124148
26.36 0.0789809
26.42 -0.0230836
26.48 0.0146511
26.54 -0.0194518
26.6 0.142383
26.66 0.18271
26.72 0.105287
26.78 0.167176
26.84 0.165578
26.9 0.140451
26.96 0.0809519
27.02 0.114317
27.08 0.113252
27.14 0.0599313
27.2 0.13925
27.26 0.05854
27.32 0.0652989
27.38 0.163272
27.44 0.18632
27.5 0.205673
27.56 0.0754803
27.62 0.101587
27.68 0.186497
27.74 0.217932
27.8 0.205747
27.86 0.217426
27.92 0.168751
27.98 0.118726
28.04 0.172144
28.1 0.307676
28.16 0.20531
28.22 0.185034
28.28 0.5023
28.34 2.18033
28.4 6.31271
28.46 12.2711
28.52 15.7607
28.58 13.3219
28.64 8.49487
28.7 3.67027
28.76 1.46585
28.82 0.562057
28.88 0.269404
28.94 0.162369
29 0.0577321
29.06 -0.0888104
29.12 -0.042333
29.18 -0.0574758
29.24 -0.0787452
29.3 0.0117857
29.36 0.0275778
29.42 -0.00369851
29.48 0.00207798
29.54 0.0467587
29.6 -0.0444856
29.66 0.00973416
29.72 -0.00796589
29.78 0.0290461
29.84 -0.0443687
29.9 -0.0765299
29.96 -0.0759471
30.02 0.0655965
30.08 -0.0335897
30.14 0.0181814
30.2 0.0895279
30.26 0.0888674
30.32 -0.0282425
30.38 -0.0196462
30.44 -0.000411364
30.5 0.0166428
30.56 0.098939
30.62 -0.0823207
30.68 0.14826
30.74 -0.0301117
30.8 -0.0403864
30.86 0.041181
30.92 -0.061658
30.98 -0.00175429
31.04 0.0777141
31.1 0.0474188
31.16 0.0205658
31.22 0.0572741
31.28 0.0640605
31.34 0.0279258
31.4 0.132321
31.46 0.0748972
31.52 0.0508486
31.58 -0.0117095
31.64 0.0890035
31.7 0.182897
31.76 0.245932
31.82 0.641145
31.88 2.94351
31.94 9.33357
32 14.5265
32.06 15.0562
32.12 10.8584
32.18 6.26127
32.24 2.76186
32.3 1.05095
32.36 0.262331
32.42 0.0730708
32.48 0.342491
32.54 0.183429
32.6 0.0830114
32.66 0.14184
32.72 0.0758015
32.78 0.0184244
32.84 -0.0446829
32.9 -0.00688858
32.96 -0.00690013
33.02 0.0338463
33.08 0.180729
33.14 0.213416
33.2 0.165491
33.26 -0.0372646
33.32 -0.0199782
33.38 0.174591
33.44 0.0386982
33.5 0.179017
33.56 0.0382746
33.62 0.180741
33.68 0.0947979
33.74 0.094786
33.8 0.120092
33.86 0.0167721
33.92 0.0906726
33.98 0.199258
34.04 0.111339
34.1 0.109572
34.16 0.128387
34.22 0.135228
34.28 0.212783
34.34 0.202204
34.4 0.244148
34.46 0.151368
34.52 0.196288
34.58 0.0591717
34.64 0.165351
34.7 0.144264
34.76 0.047199
34.82 0.0497869
34.88 0.10077
34.94 0.132414
35 0.578304
35.06 1.56059
35.12 2.7722
35.18 3.35298
35.24 3.27181
35.3 2.38468
35.36 1.42367
35.42 0.6228
35.48 0.256508
35.54 0.0464793
35.6 -0.0879836
35.66 0.145706
35.72 0.12035
35.78 0.0449187
35.84 0.124717
35.9 -0.0873312
35.96 0.0134362
36.02 -0.0871652
36.08 -0.0270143
36.14 0.0239312
36.2 -0.0444132
36.26 0.026623
36.32 0.00768034
36.38 0.150183
36.44 0.00175468
36.5 -0.0353096
36.56 0.0145158
36.62 -0.0865316
36.68 -0.0307613
36.74 0.104243
36.8 0.0097627
36.86 0.00944125
36.92 -0.0674385
36.98 -0.047726
37.04 0.042117
37.1 0.00854799
37.16 0.0357787
37.22 -0.0764754
37.28 -0.0123317
37.34 0.0377051
37.4 -0.0147432
37.46 -0.00429037
37.52 0.0156637
37.58 -0.0568711
37.64 0.0767632
37.7 0.0259629
37.76 -0.0542139
37.82 0.118705
37.88 0.0415616
37.94 0.05384
38 0.00150996
38.06 -0.0206041
38.12 0.0357509
38.18 -0.000235572
38.24 -0.0160067
38.3 -0.0101477
38.36 0.0801619
38.42 0.0335334
38.48 0.0889235
38.54 0.091724
38.6 0.0820367
38.66 0.10325
38.72 0.0573146
38.78 0.126887
38.84 0.0622899
38.9 0.091754
38.96 -0.0539098
39.02 0.0227259
39.08 -0.00548974
39.14 -0.0116388
39.2 0.00668732
39.26 -0.0294224
39.32 -0.0485135
39.38 0.0296902
39.44 0.176151
39.5 0.0536482
39.56 0.0770152
39.62 0.0531081
39.68 -0.0708367
39.74 -0.0671627
39.8 -0.0115542
39.86 -0.0131059
39.92 -0.00422658
39.98 0.0162048
40.04 -0.0173492
40.1 -0.0408501
40.16 0.0762803
40.22 -0.037424
40.28 -0.0696983
40.34 -0.00221161
40.4 0.0296003
40.46 0.0686725
40.52 0.151162
40.58 0.248585
40.64 0.591101
40.7 2.31845
40.76 5.59679
40.82 9.25274
40.88 11.7402
40.94 11.704
41 9.65948
41.06 6.02116
41.12 2.9011
41.18 1.26994
41.24 0.539311
41.3 0.238915
41.36 0.0156169
41.42 0.0238983
41.48 0.0164398
41.54 0.0599443
41.6 -0.0227052
41.66 0.0629215
41.72 -0.0417665
41.78 0.0343214
41.84 0.0180247
41.9 -0.0529248
41.96 -0.0393104
42.02 0.0756766
42.08 -0.052359
42.14 -0.0308861
42.2 0.0374122
42.26 0.0164218
42.32 0.0191598
42.38 0.0977715
42.44 0.0985349
42.5 0.0095465
42.56 -0.0228685
42.62 -0.0345594
42.68 -0.0597324
42.74 0.0108037
42.8 0.0135822
42.86 -0.0227874
42.92 -0.0492933
42.98 0.112724
43.04 0.0172932
43.1 0.0217241
43.16 0.0328055
43.22 0.239457
43.28 0.96806
43.34 2.80329
43.4 4.587
43.46 5.25806
43.52 4.76894
43.58 3.7247
43.64 2.56411
43.7 1.40782
43.76 0.647368
43.82 0.286224
43.88 0.111431
43.94 0.0395424
44 0.0422494
44.06 -0.0166103
44.12 0.0625509
44.18 0.118747
44.24 -0.00163976
44.3 -0.0735808
44.36 0.106646
44.42 0.137655
44.48 0.057767
44.54 -0.0370884
44.6 0.101826
44.66 -0.000945499
44.72 0.0387327
44.78 0.0729782
44.84 0.120081
44.9 0.0293511
44.96 -0.0204341
45.02 0.0443319
45.08 -0.0407414
45.14 0.0355395
45.2 -0.0723592
45.26 0.00506451
45.32 0.0180889
45.38 0.037014
45.44 -0.0528455
45.5 -0.00764565
45.56 -0.0131148
45.62 -0.0314836
45.68 -0.0250313
45.74 0.108697
45.8 0.0969602
45.86 0.163023
45.92 0.316505
45.98 0.231252
46.04 0.022174
46.1 0.0271619
46.16 0.0675714
46.22 -0.0760857
46.28 0.00777934
46.34 -0.0606534
46.4 -0.0629469
46.46 0.0716349
46.52 0.0652969
46.58 -0.0238147
46.64 0.0104079
46.7 -0.0195182
46.76 0.0421822
46.82 0.0134946
46.88 0.117404
46.94 0.0483854
47 -0.0515639
47.06 -0.000916625
47.12 0.108295
47.18 0.0665085
47.24 -0.0741323
47.3 0.171176
47.36 0.0293405
47.42 0.0335226
47.48 0.097666
47.54 0.0214405
47.6 0.0435087
47.66 0.0276744
47.72 -0.00828902
47.78 0.0125263
47.84 0.00802701
47.9 -0.0451212
47.96 0.0118545
48.02 0.0918773
48.08 0.0595677
48.14 -0.00276712
48.2 0.163206
48.26 0.172901
48.32 0.115157
48.38 0.134307
48.44 0.12885
48.5 0.0650394
48.56 -0.00711535
48.62 -0.03005
48.68 0.0375599
48.74 0.000148536
48.8 0.0244158
48.86 -0.0121666
48.92 0.033797
48.98 0.0222476
49.04 0.0730391
49.1 0.0931858
49.16 -0.01135
49.22 -0.0158205
49.28 0.0217669
49.34 0.0978708
49.4 0.103387
49.46 0.19923
49.52 0.131359
49.58 0.0998945
49.64 0.042556
49.7 0.0252189
49.76 -0.048495
49.82 0.0194711
49.88 0.0624537
49.94 0.00905833
50 0.00599551
50.06 -0.00560288
50.12 0.011748
50.18 -0.00276716
50.24 -0.0516021
50.3 -0.0410667
50.36 0.0526758
50.42 0.373186
50.48 0.804089
50.54 1.28984
50.6 1.57518
50.66 1.50886
50.72 1.12536
50.78 0.691456
50.84 0.324962
50.9 0.130759
50.96 0.0879914
51.02 0.0642035
51.08 -0.0192199
51.14 -0.00495772
51.2 -0.063295
51.26 0.0103858
51.32 0.0355962
51.38 -0.00203366
51.44 -0.0571063
51.5 0.0324398
51.56 0.0163568
51.62 -0.0544865
51.68 0.0214229
51.74 0.00317816
51.8 0.0267286
51.86 0.0665454
51.92 0.0512012
51.98 0.0309371
52.04 -0.0219432
52.1 0.0213957
52.16 -0.009996
52.22 0.0420373
52.28 0.0217445
52.34 0.0475874
52.4 0.0128558
52.46 0.245584
52.52 0.236996
52.58 0.228438
52.64 0.408166
52.7 0.585928
52.76 0.88302
52.82 1.15482
52.88 1.04738
52.94 0.968182
53 0.774901
53.06 0.430264
53.12 0.272022
53.18 0.184124
53.24 0.0600077
53.3 -0.0688509
53.36 0.0130177
53.42 -0.0431526
53.48 0.0109053
53.54 0.025643
53.6 -0.0293604
53.66 -0.0605789
53.72 0.000378226
53.78 -0.0165799
53.84 -0.012969
53.9 0.0120231
53.96 -0.0400876
54.02 -0.0438558
54.08 0.00457236
54.14 -0.0222526
54.2 0.00906858
54.26 0.0935436
54.32 0.0675477
54.38 0.0124091
54.44 -0.0340598
54.5 0.0214544
54.56 0.013507
54.62 0.0761672
54.68 0.0889689
54.74 0.103673
54.8 0.0559297
54.86 0.248369
54.92 0.559316
54.98 0.529604
55.04 0.607514
55.1 0.567463
55.16 0.453767
55.22 0.376455
55.28 0.288949
55.34 0.164942
55.4 0.0790992
55.46 0.0301162
55.52 0.0850591
55.58 0.00200352
55.64 0.0509096
55.7 0.000709153
55.76 0.0546749
55.82 -0.0672381
55.88 -0.00128419
55.94 0.0197716
56 -0.0150527
56.06 0.00747772
56.12 -0.0446784
56.18 -0.0445222
56.24 -0.052013
56.3 0.0628098
56.36 0.123691
56.42 -0.0136221
56.48 -0.00387909
56.54 0.0528533
56.6 0.0334017
56.66 -0.0296933
56.72 0.0836152
56.78 -0.00759372
56.84 -0.0164405
56.9 -0.0667187
56.96 0.082037
57.02 0.0860697
57.08 0.00643399
57.14 -0.0134353
57.2 0.0569715
57.26 -0.01584
57.32 0.0277735
57.38 0.107134
57.44 -0.058841
57.5 0.0453938
57.56 -0.0428953
57.62 -0.00393556
57.68 0.0406049
57.74 -0.0503007
57.8 -0.01759
57.86 0.0273238
57.92 -0.0389186
57.98 0.0375045
58.04 0.0835955
58.1 0.0800616
58.16 -0.0245098
58.22 0.0255895
58.28 -0.0107319
58.34 0.0323566
58.4 0.0358913
58.46 0.0319345
58.52 0.100245
58.58 0.0893498
58.64 0.0521213
58.7 0.00833862
58.76 0.019818
58.82 -0.0462976
58.88 0.0308453
58.94 0.273898
59 0.398254
59.06 0.469068
59.12 0.316066
59.18 0.254661
59.24 0.237106
59.3 0.105337
59.36 0.0153612
59.42 0.0412896
59.48 0.0594317
59.54 0.00258641
59.6 -0.0387279
59.66 0.0353358
59.72 -0.0238813
59.78 -0.0179368
59.84 0.00778316
59.9 0.0298909
59.96 -0.00927772
60.02 -0.00274871
60.08 0.0649869
60.14 0.0189494
60.2 -0.00165862
60.26 0.0107518
60.32 0.0195003
60.38 -0.0170975
60.44 0.103392
60.5 0.0309062
60.56 0.055176
60.62 -0.00642222
60.68 0.0410806
60.74 -0.00648002
60.8 -0.0025293
60.86 -0.00858921
60.92 0.0555706
60.98 0.363495
61.04 0.642773
61.1 0.752969
61.16 0.779385
61.22 0.694227
61.28 0.45692
61.34 0.335633
61.4 0.178562
61.46 -0.00187063
61.52 0.00686271
61.58 0.020153
61.64 -0.0209274
61.7 -0.0181059
61.76 -0.00927169
61.82 -0.0395494
61.88 -0.0641108
61.94 -0.0136298
62 -0.0360918
62.06 0.0686139
62.12 0.0639068
62.18 0.0425604
62.24 0.0652394
62.3 -0.0207788
62.36 -0.0420189
62.42 -0.0304593
62.48 -0.0106043
62.54 0.0553515
62.6 0.0655163
62.66 0.0704416
62.72 0.079111
62.78 0.0186117
62.84 0.0206107
62.9 0.115635
62.96 0.199585
63.02 0.258296
63.08 0.32571
63.14 0.229587
63.2 0.305494
63.26 0.197379
63.32 0.224581
63.38 0.09837
63.44 0.0103361
63.5 0.0147859
63.56 0.0236822
63.62 -0.03854
63.68 0.0138589
63.74 0.0310682
63.8 -0.00894447
63.86 0.00165265
63.92 0.064928
63.98 0.0778325
64.04 -0.0636362
64.1 -0.0199736
64.16 -0.0305299
64.22 0.0255694
64.28 0.0649717
64.34 -0.0160875
64.4 0.111248
64.46 0.0506025
64.52 0.00371474
64.58 -0.00680919
64.64 -0.0522821
64.7 0.00456237
64.76 0.0174153
64.82 0.075325
64.88 0.060789
64.94 0.0254403
65 0.0769768
65.06 0.0468315
65.12 -0.062748
65.18 0.0851919
65.24 0.128524
65.3 0.116081
65.36 0.0335209
65.42 -0.0423485
65.48 0.0594996
65.54 0.0785157
65.6 0.0496559
65.66 0.0547144
65.72 -0.0628441
65.78 0.0475788
65.84 0.0574106
65.9 0.0149464
65.96 0.0122927
66.02 0.0603614
66.08 0.0369286
66.14 0.023568
66.2 0.0383807
66.26 -0.0263266
66.32 -0.0346673
66.38 0.0141867
66.44 0.00609639
66.5 -0.0416816
66.56 0.0436903
66.62 0.030943
66.68 0.0284291
66.74 0.121799
66.8 0.419673
66.86 0.403545
66.92 0.555322
66.98 0.548668
67.04 0.546338
67.1 0.554685
67.16 0.408322
67.22 0.325721
67.28 0.32844
67.34 0.0496777
67.4 0.0706567
67.46 0.0693273
67.52 0.066091
67.58 -0.0184273
67.64 -0.0109719
67.7 0.000344194
67.76 0.0407978
67.82 -0.0585069
67.88 0.0559736
67.94 -0.00276877
68 0.0399446
68.06 -0.0115994
68.12 -0.0630249
68.18 0.0110323
68.24 0.0104017
68.3 0.0121419
68.36 0.0663471
68.42 -0.00352854
68.48 0.0196833
68.54 -0.00881129
68.6 0.140338
68.66 0.220855
68.72 0.41259
68.78 0.447809
68.84 0.560943
68.9 0.513155
68.96 0.518549
69.02 0.304068
69.08 0.355088
69.14 0.201696
69.2 0.128082
69.26 0.0396128
69.32 -0.0173895
69.38 0.0606114
69.44 -0.0310134
69.5 -0.00104385
69.56 -0.045093
69.62 0.0243267
69.68 -0.0404237
69.74 -0.00214726
69.8 -0.0496222
69.86 -0.0459861
69.92 0.0314205
69.98 -0.0380845
70.04 0.0568797
70.1 0.0154658
70.16 0.0474865
70.22 -0.0321805
70.28 0.0452416
70.34 0.11874
70.4 0.0677367
70.46 0.00277252
70.52 0.0818212
70.58 0.0930667
70.64 0.082197
70.7 0.0946622
70.76 0.0597808
70.82 0.110989
70.88 0.109781
70.94 0.0443522
71 0.137415
71.06 0.0251442
71.12 0.0539231
71.18 -0.00107679
71.24 -0.0437891
71.3 -0.0130468
71.36 -0.00591356
71.42 0.0652069
71.48 0.0447857
71.54 0.0359221
71.6 -0.001836
71.66 0.0114846
71.72 -0.0382984
71.78 -0.0433822
71.84 0.0330719
71.9 -0.0359669
71.96 -0.00982617
72.02 0.0344568
72.08 0.00726254
72.14 -0.0441211
72.2 0.0656376
72.26 0.0119841
72.32 0.0522827
72.38 -0.056599
72.44 0.0774934
72.5 -0.035739
72.56 0.083931
72.62 0.069799
72.68 0.0707173
72.74 0.0441469
72.8 0.0310559
72.86 0.0913553
72.92 -0.0252435
72.98 -0.0203257
73.04 0.0201147
73.1 -0.0276614
73.16 0.0215199
73.22 -0.0255492
73.28 -0.0271745
73.34 -0.0106275
73.4 -0.00530344
73.46 -0.0109963
73.52 -0.0155451
73.58 0.0113665
73.64 0.0302796
73.7 -0.0561589
73.76 -0.0515108
73.82 -0.026065
73.88 0.0523814
73.94 -0.00929107
74 0.0516595
74.06 0.0962936
74.12 0.111337
74.18 0.0942073
74.24 0.123603
74.3 0.269615
74.36 0.275905
74.42 0.201206
74.48 0.155659
74.54 0.242179
74.6 0.152594
74.66 0.13078
74.72 0.0702584
74.78 0.0896963
74.84 0.0295008
74.9 0.0347059
74.96 -0.0210336
75.02 0.0388397
75.08 -0.0425908
75.14 -0.0186153
75.2 0.0865516
75.26 0.0649957
75.32 -0.0247425
75.38 -0.00685177
75.44 0.0412118
75.5 0.0401181
75.56 0.035133
75.62 -0.0124682
75.68 0.0331265
75.74 -0.0481891
75.8 0.0483304
75.86 0.0289642
75.92 0.0928326
75.98 0.0435246
76.04 0.0722745
76.1 0.10881
76.16 0.148666
76.22 0.232095
76.28 0.124336
76.34 0.0890991
76.4 0.155181
76.46 0.0903529
76.52 0.0578816
76.58 -0.00131053
76.64 0.119638
76.7 0.0433657
76.76 0.00958323
76.82 0.0365683
76.88 -0.011916
76.94 -0.00264967
77 0.0419422
77.06 -0.0120535
77.12 -0.0397146
77.18 0.00125301
77.24 -0.00544709
77.3 -0.0223092
77.36 0.011758
77.42 -0.0396419
77.48 0.0673576
77.54 0.06946
77.6 0.0470087
77.66 0.0667852
77.72 0.01313
77.78 0.119233
77.84 0.148021
77.9 0.148661
77.96 0.221177
78.02 0.201045
78.08 0.260499
78.14 0.232573
78.2 0.163308
78.26 0.268169
78.32 0.12164
78.38 0.0726329
78.44 0.0709938
78.5 0.0395214
78.56 0.104662
78.62 0.0739633
78.68 0.0194741
78.74 0.0743116
78.8 0.0359189
78.86 0.0384661
78.92 0.0467539
78.98 -0.0146856
79.04 0.0304261
79.1 0.0559892
79.16 0.042633
79.22 0.0625317
79.28 0.0423232
79.34 0.0579092
79.4 0.0273493
79.46 0.016589
79.52 -0.0106385
79.58 0.0608585
79.64 -0.00435973
79.7 0.00603527
79.76 -0.0536643
79.82 0.0156691
79.88 -0.0140609
79.94 0.0251751
80 0.0375245
80.06 -0.0423251
80.12 0.0436283
80.18 -0.0342091
80.24 0.0223722
80.3 0.0604317
80.36 -0.0560545
80.42 0.0202649
80.48 -0.00667534
80.54 0.015945
80.6 0.0235786
80.66 0.0618513
80.72 -0.0125779
80.78 -0.0150516
80.84 -0.0544713
80.9 0.0249043
80.96 0.0321743
81.02 0.0443403
81.08 0.0780842
81.14 0.0605808
81.2 -0.000735125
81.26 0.0380036
81.32 0.0692796
81.38 -0.0267411
81.44 0.0356117
81.5 0.0392581
81.56 -0.0201546
81.62 0.0160299
81.68 -0.0102448
81.74 -0.00171727
81.8 0.0224465
81.86 0.11287
81.92 -0.0546444
81.98 0.0125253
82.04 -0.0132169
82.1 0.0488856
82.16 -0.0272686
82.22 -0.0307461
82.28 -0.021199
82.34 -0.0158125
82.4 -0.0394671
82.46 0.082028
82.52 0.143651
82.58 -0.0470881
82.64 0.00761414
82.68 -0.0693511